Folder: Batteries/datas

Note: datas/AB044 NR37 14-02-2025 VARTA pulse discharge 120mA dts= 10s for 30min rest (loop 720)_01_PEIS_C02_.mpt_OUTPUT.txt
1.0000186E+006	1.8998955E+000	-0.27826399
7.9201306E+005	1.9337492E+000	-0.30161235
6.2729181E+005	1.9739577E+000	-0.34094477
4.9682675E+005	2.0040519E+000	-0.37654293
3.9349206E+005	2.0420969E+000	-0.42638859
3.1165566E+005	2.0818527E+000	-0.48413247
2.4683603E+005	2.1295452E+000	-0.55656016
1.9549808E+005	2.1786594E+000	-0.64281541
1.5483967E+005	2.2413685E+000	-0.7451815
1.2263398E+005	2.3126628E+000	-0.86468422
9.7127375E+004	2.3934016E+000	-1.0091499
7.6928070E+004	2.4920468E+000	-1.1772909
6.0922652E+004	2.6103652E+000	-1.3761134
4.8257500E+004	2.7485926E+000	-1.6105857
3.8218156E+004	2.9196951E+000	-1.8855115
3.0266479E+004	3.1312377E+000	-2.2019486
2.3975656E+004	3.3909922E+000	-2.568675
1.8983818E+004	3.7231641E+000	-2.9879525
1.5040457E+004	4.1070561E+000	-3.4462085
1.1913598E+004	4.5799017E+000	-3.9501505
9.4374268E+003	5.1382651E+000	-4.50032
7.4706152E+003	5.8096700E+000	-5.0844679
5.9169902E+003	6.6024666E+000	-5.6935873
4.6864971E+003	7.5290666E+000	-6.3042483
3.7111863E+003	8.5996790E+000	-6.8990607
2.9409380E+003	9.8315039E+000	-7.4395509
2.3292527E+003	1.1200248E+001	-7.8918777
1.8444061E+003	1.2697032E+001	-8.2057371
1.4604702E+003	1.4257812E+001	-8.3424511
1.1568517E+003	1.5847801E+001	-8.2866182
9.1646613E+002	1.7379135E+001	-8.0392656
7.2569403E+002	1.8815426E+001	-7.6390681
5.7481604E+002	2.0079168E+001	-7.1170855
4.5514554E+002	2.1203930E+001	-6.5446291
3.6057681E+002	2.2147583E+001	-5.9397039
2.8563962E+002	2.2954813E+001	-5.3639698
2.2623093E+002	2.3626940E+001	-4.8301635
1.7914027E+002	2.4201717E+001	-4.3683348
1.4186128E+002	2.4750952E+001	-3.9779689
1.1233688E+002	2.5212185E+001	-3.6477857
8.9003143E+001	2.5625210E+001	-3.3621442
7.0473549E+001	2.6031540E+001	-3.149014
5.5839867E+001	2.6416386E+001	-2.9618073
4.4221729E+001	2.6802500E+001	-2.8055253
3.5011173E+001	2.7181810E+001	-2.6457181
2.7736723E+001	2.7543261E+001	-2.534162
2.1960661E+001	2.7886293E+001	-2.4087315
1.7399788E+001	2.8231087E+001	-2.301163
1.3786777E+001	2.8544462E+001	-2.1903694
1.0911301E+001	2.8842705E+001	-2.1050141
8.6421518E+000	2.9136818E+001	-2.0432696
6.8470612E+000	2.9418736E+001	-1.9914463
5.4197016E+000	2.9700758E+001	-1.955793
4.2925849E+000	2.9971048E+001	-1.9554667
3.4004376E+000	3.0251606E+001	-1.9505063
2.6930346E+000	3.0527718E+001	-1.99379
2.1345615E+000	3.0836241E+001	-2.0469837
1.6891882E+000	3.1129477E+001	-2.1120141
1.3384447E+000	3.1484230E+001	-2.2073627
1.0601133E+000	3.1800478E+001	-2.2985952
8.3950907E-001	3.2138729E+001	-2.4141064
6.6517669E-001	3.2439812E+001	-2.5292227
5.2644908E-001	3.2754803E+001	-2.6678712
4.1728988E-001	3.3050503E+001	-2.8114145
3.3019856E-001	3.3397533E+001	-2.9886861
2.6168153E-001	3.3691376E+001	-3.2167337
2.0727515E-001	3.4025215E+001	-3.436101
1.6422123E-001	3.4441692E+001	-3.7193363
1.3006553E-001	3.4877483E+001	-4.0685406
1.0297224E-001	3.5377132E+001	-4.4502621
8.1555545E-002	3.6001617E+001	-4.8738427
6.4581856E-002	3.6715595E+001	-5.3962321
5.1141009E-002	3.7450916E+001	-6.011116
4.0509924

Note: datas/AB044 NR37 14-02-2025 VARTA pulse discharge 120mA dts= 10s for 30min rest (loop 720)_01_PEIS_C02_.mpt_OUTPUT_direct_delete.txt
1.0000186E+006	1.8998955E+000	-0.27826399
7.9201306E+005	1.9337492E+000	-0.30161235
6.2729181E+005	1.9739577E+000	-0.34094477
4.9682675E+005	2.0040519E+000	-0.37654293
3.9349206E+005	2.0420969E+000	-0.42638859
3.1165566E+005	2.0818527E+000	-0.48413247
2.4683603E+005	2.1295452E+000	-0.55656016
1.9549808E+005	2.1786594E+000	-0.64281541
1.5483967E+005	2.2413685E+000	-0.7451815
1.2263398E+005	2.3126628E+000	-0.86468422
9.7127375E+004	2.3934016E+000	-1.0091499
7.6928070E+004	2.4920468E+000	-1.1772909
6.0922652E+004	2.6103652E+000	-1.3761134
4.8257500E+004	2.7485926E+000	-1.6105857
3.8218156E+004	2.9196951E+000	-1.8855115
3.0266479E+004	3.1312377E+000	-2.2019486
2.3975656E+004	3.3909922E+000	-2.568675
1.8983818E+004	3.7231641E+000	-2.9879525
1.5040457E+004	4.1070561E+000	-3.4462085
1.1913598E+004	4.5799017E+000	-3.9501505
9.4374268E+003	5.1382651E+000	-4.50032
7.4706152E+003	5.8096700E+000	-5.0844679
5.9169902E+003	6.6024666E+000	-5.6935873
4.6864971E+003	7.5290666E+000	-6.3042483
3.7111863E+003	8.5996790E+000	-6.8990607
2.9409380E+003	9.8315039E+000	-7.4395509
2.3292527E+003	1.1200248E+001	-7.8918777
1.8444061E+003	1.2697032E+001	-8.2057371
1.4604702E+003	1.4257812E+001	-8.3424511
1.1568517E+003	1.5847801E+001	-8.2866182
9.1646613E+002	1.7379135E+001	-8.0392656
7.2569403E+002	1.8815426E+001	-7.6390681
5.7481604E+002	2.0079168E+001	-7.1170855
4.5514554E+002	2.1203930E+001	-6.5446291
3.6057681E+002	2.2147583E+001	-5.9397039
2.8563962E+002	2.2954813E+001	-5.3639698
2.2623093E+002	2.3626940E+001	-4.8301635
1.7914027E+002	2.4201717E+001	-4.3683348
1.4186128E+002	2.4750952E+001	-3.9779689
1.1233688E+002	2.5212185E+001	-3.6477857
8.9003143E+001	2.5625210E+001	-3.3621442
7.0473549E+001	2.6031540E+001	-3.149014
5.5839867E+001	2.6416386E+001	-2.9618073
4.4221729E+001	2.6802500E+001	-2.8055253
3.5011173E+001	2.7181810E+001	-2.6457181
2.7736723E+001	2.7543261E+001	-2.534162
2.1960661E+001	2.7886293E+001	-2.4087315
1.7399788E+001	2.8231087E+001	-2.301163
1.3786777E+001	2.8544462E+001	-2.1903694
1.0911301E+001	2.8842705E+001	-2.1050141
8.6421518E+000	2.9136818E+001	-2.0432696
6.8470612E+000	2.9418736E+001	-1.9914463
5.4197016E+000	2.9700758E+001	-1.955793
4.2925849E+000	2.9971048E+001	-1.9554667
3.4004376E+000	3.0251606E+001	-1.9505063

File: AB044 NR37 14-02-2025 VARTA pulse discharge 120mA dts= 10s for 30min rest (loop 720)_01_PEIS_C02_.mpt.txt
freq/Hz	Re(Z)/Ohm	-Im(Z)/Ohm	|Z|/Ohm	Phase(Z)/deg	time/s	<Ewe>/V	<I>/mA	Cs/ F	Cp/ F	cycle number	I Range	|Ewe|/V	|I|/A	Ns	(Q-Qo)/mA.h	Analog IN 1/V	Analog IN 2/V	THD Ewe/%	NSD Ewe/%	NSR Ewe/%	THD I/%	NSD I/%	NSR I/%	|Ewe h2|/V	|Ewe h3|/V	|Ewe h4|/V	|Ewe h5|/V	|Ewe h6|/V	|Ewe h7|/V	|I h2|/A	|I h3|/A	|I h4|/A	|I h5|/A	|I h6|/A	|I h7|/A	Re(Y)/Ohm-1	Im(Y)/Ohm-1	|Y|/Ohm-1	Phase(Y)/deg	Re(C)/nF	Im(C)/nF	|C|/nF	Phase(C)/deg	Re(M)	Im(M)	|M|	Phase(M)/deg	Re(Permittivity)	Im(Permittivity)	|Permittivity|	Phase(Permittivity)/deg	Re(Resistivity)/Ohm.cm	Im(Resistivity)/Ohm.cm	|Resistivity|/Ohm.cm	Phase(Resistivity)/deg	Re(Conductivity)/mS/cm	Im(Conductivity)/mS/cm	|Conductivity|/mS/cm	Phase(Conductivity)/deg	Tan(Delta)	Loss Angle(Delta)/deg	dq/mA.h
1,0000186E+006	1,8998955E+000	2,7826399E-001	1,9201651E+000	-8,3324556E+000	3,062492492113961E+000	3,2459970E+000	2,8506717E-001	5,7194602E-001	1,2011353E-002	1,000000000000000E+000	37	1,2766681E-002	6,6487412E-003	0	8,920596714002183E-005	-4,6431704E-004	-4,6521865E-004	-1	-1	-1	-1	-1	-1	0	0	0	0	0	0	0	0	0	0	0	0	5,1529104E-001	7,5470962E-002	5,2078855E-001	8,3324556E+000	1,2011358E+001	8,2009598E+001	8,2884537E+001	-8,1667542E+001	0,0000000E+000	0,0000000E+000	0,0000000E+000	8,1667542E+001	0,0000000E+000	0,0000000E+000	0,0000000E+000	-8,1667542E+001	0,0000000E+000	0,0000000E+000	0,0000000E+000	-8,3324556E+000	0,0000000E+000	0,0000000E+000	0,0000000E+000	8,3324556E+000	6,8276730E+000	8,3324556E+000	8,920596714002183E-005
1,5483967E+005	2,2413685E+000	7,4518150E-001	2,3619967E+000	-1,8390274E+001	9,867477508640150E+000	3,2459776E+000	2,6083574E-001	1,3793542E+000	1,3729079E-001	1,000000000000000E+000	37	1,4889011E-002	6,3035698E-003	0	5,575616259065250E-004	-4,6431704E-004	-6,0270686E-004	-1	-1	-1	-1	-1	-1	0	0	0	0	0	0	0	0	0	0	0	0	4,0174893E-001	1,3356833E-001	4,2337063E-001	1,8390274E+001	1,3729079E+002	4,1294537E+002	4,3516968E+002	-7,1609726E+001	0,0000000E+000	0,0000000E+000	0,0000000E+000	7,1609726E+001	0,0000000E+000	0,0000000E+000	0,0000000E+000	-7,1609726E+001	0,0000000E+000	0,0000000E+000	0,0000000E+000	-1,8390274E+001	0,0000000E+000	0,0000000E+000	0,0000000E+000	1,8390274E+001	3,0078156E+000	1,8390274E+001	6,548228060761988E-005
2,3975656E+004	3,3909922E+000	2,5686750E+000	4,2540474E+000	-3,7143913E+001	1,628849829363753E+001	3,2459869E+000	2,5880393E-001	2,5842855E+000	9,4222403E-001	1,000000000000000E+000	37	1,4575329E-002	3,4262263E-003	0	1,015905144205537E-003	-3,2698250E-004	-4,6521865E-004	1,2816958E-001	6,3907459E-002	1,7735360E+000	3,1938607E-001	1,4077879E-001	5,0971694E+000	2,8533166E-006	9,8218225E-006	1,1988179E-005	4,3566356E-006	6,3748257E-006	3,9632182E-006	6,4626538E-006	3,0355409E-006	3,6744866E-006	5,5754335E-006	2,8381176E-006	2,3324772E-006	1,8737952E-001	1,4193991E-001	2,3507026E-001	3,7143913E+001	9,4222394E+002	1,2438607E+003	1,5604408E+003	-5,2856087E+001	0,0000000E+000	0,0000000E+000	0,0000000E+000	5,2856087E+001	0,0000000E+000	0,0000000E+000	0,0000000E+000	-5,2856087E+001	0,0000000E+000	0,0000000E+000	0,0000000E+000	-3,7143913E+001	0,0000000E+000	0,0000000E+000	0,0000000E+000	3,7143913E+001	1,3201329E+000	3,7143913E+001	5,188180773553898E-005
3,7111863E+003	8,5996790E+000	6,8990607E+000	1,1025041E+001	-3,8738201E+001	2,229769332577416E+001	3,2459636E+000	3,7504077E-002	6,2160916E+000	2,4340918E+000	1,000000000000000E+000	38	1,4027439E-002	1,2723254E-003	0	1,085446967438500E-003	-4,9865089E-004	-4,9959053E-004	1,6189872E-001	4,1014209E-002	1,8314919E+000	2,7365118E-001	5,7609603E-002	1,6727432E+000	6,0321154E-006	1,4522589E-005	4,4128437E-006	1,3967004E-005	3,3033577E-006	5,4400734E-006	3,8792390E-007	2,2237768E-006	5,8798128E-007	2,3699631E-006	5,8458863E-007	7,1603102E-007	7,0749253E-002	5,6758329E-002	9,0702616E-002	3,8738201E+001	2,4340920E+003	3,0340955E+003	3,8897993E+003	-5,1261799E+001	0,0000000E+000	0,0000000E+000	0,0000000E+000	5,1261799E+001	0,0000000E+000	0,0000000E+000	0,0000000E+000	-5,1261799E+001	0,0000000E+000	0,0000000E+000	0,0000000E+000	-3,8738201E+001	0,0000000E+000	0,0000000E+000	0,0000000E+000	3,8738201E+001	1,2465000E+000	3,8738201E+001	8,831718236650870E-006
5,7481604E+002	2,0079168E+001	7,1170855E+000	2,1303190E+001	-1,9516933E+001	2,828681086355937E+001	3,2459631E+000	3,5820324E-002	3,8903534E+001	4,3421431E+000	1,000000000000000E+000	38	1,3747834E-002	6,4534153E-004	0	1,145675040266140E-003	-7,7332027E-004	-7,7456731E-004	1,3689640E-001	4,0427234E-002	1,8514463E+000	3,0404860E-001	1,0750363E-001	3,3789101E+000	4,5695288E-006	1,2164075E-005	6,5663025E-006	9,8918044E-006	3,0618914E-006	4,6206405E-006	1,0719078E-006	6,1763370E-007	8,1578827E-007	9,0260596E-007	4,3432811E-007	6,0794815E-007	4,4244207E-002	1,5682412E-002	4,6941325E-002	1,9516933E+001	4,3421440E+003	1,2250327E+004	1,2997104E+004	-7,0483063E+001	0,0000000E+000	0,0000000E+000	0,0000000E+000	7,0483063E+001	0,0000000E+000	0,0000000E+000	0,0000000E+000	-7,0483063E+001	0,0000000E+000	0,0000000E+000	0,0000000E+000	-1,9516933E+001	0,0000000E+000	0,0000000E+000	0,0000000E+000	1,9516933E+001	2,8212628E+000	1,9516933E+001	7,200450550163325E-006
8,9003143E+001	2,5625210E+001	3,3621442E+000	2,5844833E+001	-7,4747705E+000	3,450701326565468E+001	3,2459102E+000	1,4537105E-002	5,3186133E+002	9,0008526E+000	1,000000000000000E+000	39	1,3733697E-002	5,3139043E-004	0	1,192295975722670E-003	-6,0165196E-004	-5,6833500E-004	1,5364963E-001	5,9614822E-002	1,8113497E+000	1,4686723E-001	8,2650287E-003	8,2707083E-001	5,4474408E-006	1,0744330E-005	3,3845208E-006	1,3664218E-005	6,8393815E-006	5,4054130E-006	1,1307401E-007	5,7023630E-007	4,6823210E-008	4,9796671E-007	1,2590431E-007	5,5300571E-008	3,8363654E-002	5,0334861E-003	3,8692452E-002	7,4747705E+000	9,0008516E+003	6,8601680E+004	6,9189633E+004	-8,2525230E+001	0,0000000E+000	0,0000000E+000	0,0000000E+000	8,2525230E+001	0,0000000E+000	0,0000000E+000	0,0000000E+000	-8,2525230E+001	0,0000000E+000	0,0000000E+000	0,0000000E+000	-7,4747705E+000	0,0000000E+000	0,0000000E+000	0,0000000E+000	7,4747705E+000	7,6216865E+000	7,4747705E+000	2,784865860646236E-006
1,3786777E+001	2,8544462E+001	2,1903694E+000	2,8628378E+001	-4,3880129E+000	4,027734473973396E+001	3,2459385E+000	1,4334581E-002	5,2703569E+003	3,0851852E+001	1,000000000000000E+000	39	1,3731882E-002	4,7965979E-004	0	1,216192063102235E-003	-6,7031919E-004	-6,0270686E-004	1,2506203E-001	5,6624491E-002	1,2995805E+000	1,5036671E-001	2,5604807E-002	6,6988975E-001	4,9411669E-006	1,0891671E-005	3,3803469E-006	1,0729417E-005	3,7948691E-006	2,6595394E-006	2,9421389E-007	5,4037406E-007	6,5059055E-008	3,6183161E-007	6,3843345E-008	3,4818878E-008	3,4827985E-002	2,6725379E-003	3,4930374E-002	4,3880129E+000	3,0851875E+004	4,0205528E+005	4,0323725E+005	-8,5611984E+001	0,0000000E+000	0,0000000E+000	0,0000000E+000	8,5611984E+001	0,0000000E+000	0,0000000E+000	0,0000000E+000	-8,5611984E+001	0,0000000E+000	0,0000000E+000	0,0000000E+000	-4,3880129E+000	0,0000000E+000	0,0000000E+000	0,0000000E+000	4,3880129E+000	1,3031803E+001	4,3880129E+000	3,512267371000993E-006
2,1345615E+000	3,0836241E+001	2,0469837E+000	3,0904108E+001	-3,7978592E+000	5,028612569512916E+001	3,2459383E+000	1,4565661E-002	3,6424789E+004	1,5980612E+002	1,000000000000000E+000	39	1,3729830E-002	4,4427201E-004	0	1,246047513063292E-003	-4,9865089E-004	-6,0270686E-004	1,1920760E-001	2,1912260E-002	6,4270324E-001	1,5748747E-001	8,3460331E-002	3,0595723E-001	1,7131814E-006	1,0644136E-005	2,3956836E-006	1,1261826E-005	1,5456857E-006	3,6579729E-006	5,2711749E-007	3,0755592E-007	8,9470653E-008	3,1872455E-007	7,0829799E-008	3,9479904E-008	3,2287098E-002	2,1432950E-003	3,2358158E-002	3,7978592E+000	1,5980611E+005	2,4073568E+006	2,4126550E+006	-8,6202141E+001	0,0000000E+000	0,0000000E+000	0,0000000E+000	8,6202141E+001	0,0000000E+000	0,0000000E+000	0,0000000E+000	-8,6202141E+001	0,0000000E+000	0,0000000E+000	0,0000000E+000	-3,7978592E+000	0,0000000E+000	0,0000000E+000	0,0000000E+000	3,7978592E+000	1,5064234E+001	3,7978592E+000	-7,692524266468027E-006
3,3019856E-001	3,3397533E+001	2,9886861E+000	3,3530994E+001	-5,1136765E+000	1,040792789167899E+002	3,2459285E+000	1,0656587E-002	1,6127413E+005	1,2812456E+003	1,000000000000000E+000	40	1,3700277E-002	4,0858545E-004	0	1,472999184883345E-003	-4,6431704E-004	-1,9024189E-004	1,2980436E-001	8,5654236E-002	2,5975657E-001	2,9366568E-001	2,2796431E-001	1,3665743E-001	5,2764890E-006	1,1464687E-005	1,3948153E-006	1,1979550E-005	2,6892515E-006	1,3473026E-006	7,8286519E-007	7,6536793E-007	2,1732917E-007	3,9286562E-007	6,1231823E-008	9,7152160E-008	2,9704453E-002	2,6581988E-003	2,9823154E-002	5,1136765E+000	1,2812460E+006	1,4317477E+007	1,4374691E+007	-8,4886322E+001	0,0000000E+000	0,0000000E+000	0,0000000E+000	8,4886322E+001	0,0000000E+000	0,0000000E+000	0,0000000E+000	-8,4886322E+001	0,0000000E+000	0,0000000E+000	0,0000000E+000	-5,1136765E+000	0,0000000E+000	0,0000000E+000	0,0000000E+000	5,1136765E+000	1,1174654E+001	5,1136765E+000	4,452344589149135E-005
5,1141009E-002	3,7450916E+001	6,0111160E+000	3,7930260E+001	-9,1185713E+000	4,316781251969223E+002	3,2458851E+000	5,2360985E-003	5,1772094E+005	1,3002724E+004	1,000000000000000E+000	40	1,3701979E-002	3,6124137E-004	0	2,196334755059914E-003	-1,2098034E-004	-5,2753672E-005	1,4090745E-001	1,0688308E-001	1,6060030E-001	7,5435835E-001	2,4096441E-001	1,8995351E-001	8,5450256E-006	1,1446782E-005	3,3822635E-006	1,2036894E-005	1,2606814E-006	8,6306494E-007	5,8296280E-007	2,5587660E-006	1,9348442E-007	5,7102028E-007	8,4136531E-008	9,0778322E-008	2,6030999E-002	4,1781445E-003	2,6364176E-002	9,1185713E+000	1,3002718E+007	8,1010560E+007	8,2047432E+007	-8,0881432E+001	0,0000000E+000	0,0000000E+000	0,0000000E+000	8,0881432E+001	0,0000000E+000	0,0000000E+000	0,0000000E+000	-8,0881432E+001	0,0000000E+000	0,0000000E+000	0,0000000E+000	-9,1185713E+000	0,0000000E+000	0,0000000E+000	0,0000000E+000	9,1185713E+000	6,2302766E+000	9,1185713E+000	2,374152383677157E-005
1,0003746E-002	4,5859280E+001	1,2298091E+001	4,7479645E+001	-1,5011811E+001	2,020066802081376E+003	3,2459166E+000	1,3871591E-003	1,2936590E+006	8,6792117E+004	1,000000000000000E+000	40	1,3708360E-002	2,8872077E-004	0	4,275237679904676E-003	-6,7031919E-004	-3,6210232E-004	1,3530755E-001	5,3249910E-002	1,4456925E-001	1,2574502E+000	2,9106915E-001	2,7661392E-001	4,4078079E-006	1,1467125E-005	1,9375964E-006	1,2549312E-005	3,7202465E-006	1,6498367E-006	3,0638117E-007	3,4590773E-006	1,4153146E-007	9,5831092E-007	1,3373041E-007	2,8786755E-007	2,0342873E-002	5,4553514E-003	2,1061657E-002	1,5011811E+001	8,6792104E+007	3,2364570E+008	3,3508118E+008	-7,4988190E+001	0,0000000E+000	0,0000000E+000	0,0000000E+000	7,4988190E+001	0,0000000E+000	0,0000000E+000	0,0000000E+000	-7,4988190E+001	0,0000000E+000	0,0000000E+000	0,0000000E+000	-1,5011811E+001	0,0000000E+000	0,0000000E+000	0,0000000E+000	1,5011811E+001	3,7289755E+000	1,5011811E+001	7,554964448428948E-004

File: AB044 NR37 14-02-2025 VARTA pulse discharge 120mA dts= 10s for 30min rest (loop 720)_01_PEIS_C02_.mpt_nodiff.txt
freq_Hz	Zprime_Ohm	Zdoubleprime_Ohm
1000018.6	1.64502	-0.180457
792013.06	1.66463	-0.198338
627291.81	1.6898	-0.231898
496826.75	1.70401	-0.2614
393492.06	1.72528	-0.304809
311655.66	1.74732	-0.355757
246836.03	1.77632	-0.421009
195498.08	1.80569	-0.499687
154839.67	1.84755	-0.594053
122633.98	1.89683	-0.705107
97127.375	1.95432	-0.840653
76928.07	2.02842	-0.999376
60922.652	2.12082	-1.18825
48257.5	2.23169	-1.41223
38218.156	2.37389	-1.67606
30266.479	2.55491	-1.98078
23975.656	2.78248	-2.33516
18983.818	3.08059	-2.74136
15040.457	3.42861	-3.18586
11913.598	3.86355	-3.67525
9437.43	4.38191	-4.21007
7470.62	5.01093	-4.77795
5916.99	5.75909	-5.36994
4686.5	6.63855	-5.96251
3711.19	7.65935	-6.53821
2940.938	8.83873	-7.05858
2329.25	10.152	-7.48961
1844.41	11.5901	-7.78096
1460.47	13.089	-7.8939
1156.85	14.6136	-7.81301
916.466	16.0761	-7.53921
725.694	17.4394	-7.11103
574.816	18.6263	-6.55955
455.146	19.6698	-5.95589
360.577	20.5277	-5.31809
285.64	21.2445	-4.70764
226.231	21.821	-4.13715
179.14	22.2948	-3.63654
141.861	22.7373	-3.20524
112.337	23.0859	-2.83183
89.0031	23.3803	-2.50065
70.4735	23.661	-2.23931
55.8399	23.9136	-2.00134
44.2217	24.1597	-1.79135
35.0112	24.391	-1.57476
27.7367	24.5967	-1.40341
21.9607	24.7747	-1.21469
17.3998	24.9459	-1.04051
13.7868	25.076	-0.859424
10.9113	25.1797	-0.6995
8.64215	25.2692	-0.559306
6.84706	25.3355	-0.424808
5.4197	25.389	-0.301534
4.29258	25.4189	-0.20893
3.40044	25.4464	-0.106521
2.69303	25.4555	-0.0465641
2.13456	25.484	0.00934457
1.68919	25.4805	0.0611897
1.33844	25.525	0.0900083
1.06011	25.5146	0.132272
0.839509	25.5092	0.160986
0.665177	25.4499	0.202158
0.526449	25.3837	0.235225
0.41729	25.2806	0.279382
0.330199	25.2035	0.311403
0.261682	25.0514	0.314725
0.207275	24.9112	0.354446
0.164221	24.8234	0.361394
0.130066	24.7195	0.338843
0.102972	24.6392	0.325587
0.0815555	24.64	0.316566
0.0645819	24.679	0.261863
0.051141	24.6816	0.174125
0.0405099	24.6901	0.148062
0.03210552	24.7436	0.135082
0.0254206	25.0812	0.0227544
0.0201248	25.8361	-0.115564
0.0159372	25.9631	-0.173014
0.0126324	25.7059	-0.0946766
0.0100037	25.5716	-0.0562754