Folder: Batteries/datas (part 2)

File: input.txt
freq/Hz	Re(Z)/Ohm	-Im(Z)/Ohm
5,0000185E+006	5,8414941E+002	6,5603514E+000
4,5594565E+006	5,8627106E+002	1,0422172E+001
4,1577253E+006	5,8502344E+002	1,3639871E+001
3,7913915E+006	5,9008472E+002	1,2570732E+001
3,4573283E+006	5,9286456E+002	9,2249241E+000
3,1527055E+006	5,9266479E+002	7,3860903E+000
2,8749258E+006	5,9100500E+002	9,1943359E+000
2,6216133E+006	5,9087476E+002	8,6600780E+000
2,3906250E+006	5,9103064E+002	9,7311382E+000
2,1799938E+006	5,9098529E+002	1,0410392E+001
1,9879101E+006	5,9127631E+002	1,2191381E+001
1,8127598E+006	5,9072723E+002	1,3792288E+001
1,6530396E+006	5,9123358E+002	1,4683984E+001
1,5073950E+006	5,9068750E+002	1,6178183E+001
1,3745731E+006	5,9047699E+002	1,7836157E+001
1,2534609E+006	5,9103131E+002	1,9020824E+001
1,1430189E+006	5,9133575E+002	2,0733215E+001
1,0423100E+006	5,9170593E+002	2,2204666E+001
9,5047138E+005	5,9197455E+002	2,4767950E+001
8,6672356E+005	5,9189990E+002	2,7091063E+001
7,9036150E+005	5,9191748E+002	2,9338381E+001
7,2072631E+005	5,9261725E+002	3,1916325E+001
6,5722425E+005	5,9289319E+002	3,4472687E+001
5,9931713E+005	5,9365802E+002	3,7679653E+001
5,4650388E+005	5,9397748E+002	4,1133041E+001
4,9835772E+005	5,9416467E+002	4,4848446E+001
4,5444253E+005	5,9497229E+002	4,9041702E+001
4,1440581E+005	5,9603638E+002	5,3349804E+001
3,7789491E+005	5,9723358E+002	5,7868282E+001
3,4459434E+005	5,9851221E+002	6,2629044E+001
3,1423506E+005	5,9904382E+002	6,8376762E+001
2,8654803E+005	6,0030310E+002	7,4883133E+001
2,6130122E+005	6,0170160E+002	8,0964043E+001
2,3828125E+005	6,0311896E+002	8,8103607E+001
2,1728400E+005	6,0512842E+002	9,6047127E+001
1,9813316E+005	6,0713177E+002	1,0423508E+002
1,8068030E+005	6,0948712E+002	1,1383376E+002
1,6475839E+005	6,1224896E+002	1,2380707E+002
1,5024681E+005	6,1549304E+002	1,3504370E+002
1,3700639E+005	6,1926416E+002	1,4686348E+002
1,2493505E+005	6,2387341E+002	1,5966980E+002
1,1393075E+005	6,2903748E+002	1,7377800E+002
1,0389141E+005	6,3517523E+002	1,8860196E+002
9,4733523E+004	6,4257910E+002	2,0497514E+002
8,6392148E+004	6,5100427E+002	2,2227176E+002
7,8774500E+004	6,6077197E+002	2,4085507E+002
7,1834180E+004	6,7244525E+002	2,5999982E+002
6,5506234E+004	6,8582019E+002	2,8085818E+002
5,9735008E+004	7,0137268E+002	3,0192444E+002
5,4492652E+004	7,1941132E+002	3,2409155E+002
4,9667828E+004	7,4015442E+002	3,4663736E+002
4,5297652E+004	7,6367389E+002	3,6881390E+002
4,1307895E+004	7,9026648E+002	3,9142996E+002
3,7661449E+004	8,1996436E+002	4,1272803E+002
3,4349016E+004	8,5307959E+002	4,3265524E+002
3,1324230E+004	8,8868738E+002	4,5114484E+002
2,8559230E+004	9,2774841E+002	4,6732480E+002
2,6044756E+004	9,6881158E+002	4,8009299E+002
2,3771525E+004	1,0114230E+003	4,8950449E+002
2,1656029E+004	1,0568376E+003	4,9540424E+002
1,9744656E+004	1,1021572E+003	4,9759961E+002
1,8009572E+004	1,1470800E+003	4,9535666E+002
1,6422949E+004	1,1905841E+003	4,8914111E+002
1,4975503E+004	1,2334996E+003	4,7974734E+002
1,3657957E+004	1,2740709E+003	4,6591074E+002
1,2451753E+004	1,3128280E+003	4,4950711E+002
1,1356891E+004	1,3473051E+003	4,3122119E+002
1,0354810E+004	1,3790652E+003	4,1094760E+002
9,4393418E+003	1,4084799E+003	3,9093271E+002
8,6088408E+003	1,4340212E+003	3,6951819E+002
7,8507217E+003	1,4564084E+003	3,4759152E+002
7,1573926E+003	1,4771338E+003	3,2545480E+002
6,5284297E+003	1,4935898E+003	3,0455869E+002
5,9521050E+003	1,5092059E+003	2,8443271E+002
5,4285752E+003	1,5220552E+003	2,6545425E+002
4,9515815E+003	1,5329292E+003	2,4756906E+002
4,5135542E+003	1,5420020E+003	2,3089828E+002
4,1163193E+003	1,5498531E+003	2,1504778E+002
3,7537961E+003	1,5563361E+003	2,0058543E+002
3,4239070E+003	1,5625161E+003	1,8770937E+002
3,1209961E+003	1,5679076E+003	1,7633115E+002
2,8459131E+003	1,5718929E+003	1,6571481E+002
2,5958269E+003	1,5751923E+003	1,5557225E+002
2,3672729E+003	1,5779027E+003	1,4714319E+002
2,1579265E+003	1,5807393E+003	1,4112321E+002
1,9681082E+003	1,5827972E+003	1,3418927E+002
1,7944276E+003	1,5848455E+003	1,2944843E+002
1,6365721E+003	1,5860945E+003	1,2549318E+002
1,4926121E+003	1,5873251E+003	1,2323705E+002
1,3613104E+003	1,5886007E+003	1,2210826E+002
1,2411923E+003	1,5891243E+003	1,1984492E+002
1,1318103E+003	1,5893898E+003	1,2112318E+002
1,0323152E+003	1,5910537E+003	1,2215291E+002
9,4090399E+002	1,5912914E+003	1,2475983E+002
8,5807593E+002	1,5921970E+003	1,2719862E+002
7,8274310E+002	1,5934333E+003	1,3211613E+002
7,1385504E+002	1,5946506E+003	1,3718040E+002
6,5062494E+002	1,5942593E+003	1,4444389E+002
5,9329120E+002	1,5961637E+003	1,5187054E+002
5,4121240E+002	1,5978453E+003	1,6105984E+002
4,9357861E+002	1,5981033E+003	1,7118198E+002
4,4985638E+002	1,5992219E+003	1,8342090E+002
4,1039362E+002	1,6006565E+003	1,9621458E+002
3,7416220E+002	1,6027587E+003	2,1220506E+002
3,4120084E+002	1,6048606E+003	2,2847139E+002
3,1109528E+002	1,6082787E+003	2,4708633E+002
2,8381943E+002	1,6098049E+003	2,6752228E+002
2,5875790E+002	1,6142527E+003	2,9060254E+002
2,3598149E+002	1,6188297E+003	3,1592877E+002
2,1520630E+002	1,6237761E+003	3,4392285E+002
1,9619316E+002	1,6304032E+003	3,7433774E+002
1,7891228E+002	1,6374449E+003	4,0779034E+002
1,6317218E+002	1,6468815E+003	4,4382095E+002
1,4880971E+002	1,6574055E+003	4,8422278E+002
1,3565123E+002	1,6710964E+003	5,2757275E+002
1,2369379E+002	1,6852687E+003	5,7431421E+002
1,1279807E+002	1,7038510E+003	6,2561908E+002
1,0286048E+002	1,7248915E+003	6,8066602E+002
9,3828888E+001	1,7520776E+003	7,3935571E+002
8,5519997E+001	1,7818978E+003	8,0396185E+002
7,7978523E+001	1,8180558E+003	8,7094110E+002
7,1115044E+001	1,8623628E+003	9,4311829E+002
6,4854698E+001	1,9118589E+003	1,0180551E+003
5,9148296E+001	1,9694233E+003	1,0951429E+003
5,3946972E+001	2,0355992E+003	1,1748685E+003
4,9197079E+001	2,1114387E+003	1,2562664E+003
4,4842140E+001	2,1989807E+003	1,3381537E+003
4,0903168E+001	2,2973401E+003	1,4183966E+003
3,7303864E+001	2,4058750E+003	1,4940442E+003
3,4009666E+001	2,5279907E+003	1,5670245E+003
3,1002014E+001	2,6616509E+003	1,6311981E+003
2,8272047E+001	2,8030369E+003	1,6860642E+003
2,5783852E+001	2,9541370E+003	1,7303047E+003
2,3517460E+001	3,1118887E+003	1,7611183E+003
2,1448210E+001	3,2744109E+003	1,7778643E+003
1,9555689E+001	3,4378813E+003	1,7798308E+003
1,7836765E+001	3,5985232E+003	1,7647496E+003
1,6264767E+001	3,7603804E+003	1,7372921E+003
1,4824494E+001	3,9123364E+003	1,6959258E+003
1,3516471E+001	4,0571826E+003	1,6425812E+003
1,2332275E+001	4,1918936E+003	1,5824208E+003
1,1240989E+001	4,3152993E+003	1,5079481E+003
1,0252595E+001	4,4274941E+003	1,4340306E+003
9,3507023E+000	4,5265786E+003	1,3559768E+003
8,5289030E+000	4,6180508E+003	1,2739551E+003
7,7736378E+000	4,6976855E+003	1,1878999E+003
7,0893764E+000	4,7644600E+003	1,1113425E+003
6,4672976E+000	4,8242603E+003	1,0309403E+003
5,8984532E+000	4,8768457E+003	9,5556171E+002
5,3749604E+000	4,9191904E+003	8,8297626E+002
4,9042702E+000	4,9574487E+003	8,1439105E+002
4,4693947E+000	4,9895566E+003	7,5025018E+002
4,0775018E+000	5,0159595E+003	6,8825043E+002
3,7166998E+000	5,0374463E+003	6,3173615E+002
3,3893735E+000	5,0583296E+003	5,7968042E+002
3,0928328E+000	5,0729683E+003	5,3147131E+002
2,8183610E+000	5,0863574E+003	4,8684998E+002
2,5715902E+000	5,0983838E+003	4,4501828E+002
2,3446903E+000	5,1072139E+003	4,0672644E+002
2,1369011E+000	5,1142671E+003	3,7136346E+002
1,9484982E+000	5,1212573E+003	3,3987103E+002
1,7775893E+000	5,1265830E+003	3,1015015E+002
1,6215221E+000	5,1305376E+003	2,8398199E+002
1,4779643E+000	5,1343247E+003	2,5903207E+002
1,3474450E+000	5,1375645E+003	2,3568719E+002
1,2283772E+000	5,1406665E+003	2,1486554E+002
1,1212007E+000	5,1427256E+003	1,9668730E+002
1,0224432E+000	5,1443848E+003	1,7917577E+002
9,3238801E-001	5,1457075E+003	1,6378363E+002
8,4936619E-001	5,1471802E+003	1,4887848E+002
7,7462941E-001	5,1483223E+003	1,3612442E+002
7,0701540E-001	5,1488315E+003	1,2420155E+002
6,4438283E-001	5,1497192E+003	1,1308551E+002
5,8744997E-001	5,1503633E+003	1,0311464E+002
5,3561628E-001	5,1513579E+003	9,4772003E+001
4,9976036E-001	5,1514053E+003	8,8102798E+001